Folder: NMR-PorousCarbon-TEGDME-LiTFSI-data

Note: README.md
# NMR-PorousCarbon-TEGDME-LiTFSI-data

File: N2-Isotherm_Chier.dat
Relative Pressure (p/p°)	Quantity Adsorbed (cm³/g STP)
0.00995126	139.242
0.0193126	148.598
0.0315081	156.034
0.0388054	159.568
0.0499033	163.948
0.0598582	167.381
0.0695701	170.371
0.0799963	173.462
0.0900174	176.22
0.100076	178.8
0.147189	190.271
0.200987	203.067
0.251186	215.37
0.301132	228.861
0.351118	244.527
0.40061	263.378
0.450863	286.482
0.502376	311.219
0.553703	330.252
0.60218	341.222
0.650733	348.685
0.701015	355.958
0.751786	364.392
0.802391	374.076
0.852649	384.478
0.902788	395.05
0.952178	407.377
0.987148	433.112
0.994796	458.985
0.996784	495.068
0.996784	495.068
0.989924	460.305
0.947256	418.698
0.886667	406.227
0.834788	398.007
0.799678	391.894
0.747859	383.024
0.69805	375.353
0.648566	368.358
0.598179	361.514
0.548744	354.045
0.500764	339.348
0.451491	307.908
0.39664	263.86
0.342421	243.106
0.287293	226.68
0.250668	217.052
0.199553	204.941
0.150218	193.643
0.100172	181.905

File: N2-Isotherm_Cmeso.dat
Relative Pressure (p/p°)	Quantity Adsorbed (cm³/g STP)
0.0103169	72.4797
0.0215706	82.8096
0.0320079	87.4248
0.0439661	91.3233
0.0495167	93.0898
0.0603391	95.8179
0.0695722	97.9926
0.0800623	100.195
0.0898386	102.205
0.100084	104.189
0.14785	112.036
0.20034	120.212
0.250809	128.296
0.301162	137.081
0.350914	147.382
0.400601	160.662
0.449869	179.43
0.500383	206.866
0.556226	233.666
0.605259	244.58
0.647431	250.121
0.700167	256.521
0.751605	263.707
0.802388	271.867
0.852734	280.581
0.902548	289.283
0.952252	299.001
0.987825	316.856
0.99482	333.434
0.996571	358.281
0.996571	358.281
0.98817	335.577
0.944959	309.293
0.886213	299.898
0.834798	293.652
0.799653	288.856
0.74783	281.68
0.69804	275.278
0.648248	269.39
0.598223	263.608
0.548613	257.166
0.50157	243.663
0.442837	192.556
0.388848	164.484
0.353252	155.205
0.304111	145.257
0.249662	136.264
0.200018	128.819
0.150201	121.56
0.100224	113.882

File: N2-Isotherm_Cmicro.dat
Relative Pressure (p/p°)	Quantity Adsorbed (cm³/g STP)
0.0102279	230.294
0.0209297	240.219
0.0288133	244.421
0.0434234	249.423
0.0541385	251.915
0.0605552	253.077
0.0705461	254.609
0.0808539	255.932
0.0912579	257.054
0.101362	258
0.147701	261.322
0.203587	264.227
0.254282	266.322
0.304362	268.008
0.353378	269.315
0.400901	270.274
0.451294	271.025
0.501163	271.579
0.55108	272.007
0.601291	272.36
0.651554	272.616
0.702108	272.847
0.752333	273.043
0.802363	273.214
0.852539	273.376
0.902586	273.585
0.952579	274.05
0.990889	275.877
0.995887	277.246
0.998574	278.742
0.998574	278.742
0.980344	275.52
0.933103	274.157
0.881878	273.797
0.849612	273.66
0.79785	273.52
0.748084	273.369
0.698393	273.224
0.648486	273.033
0.598557	272.81
0.548206	272.511
0.49829	272.114
0.448865	271.248
0.398179	270.275
0.348929	269.178
0.299146	267.855
0.249399	266.18
0.199296	264.216
0.155701	262.039
0.100392	258.292